PART	VALUE	Freq(Hz)	GAIN (V/V)	Phase (degree)	GROUP DELAY (s)
R1 (KOhm)	62.00	0.0010	0.0000	179.9987	0.0037
C1 (nF)	220.00	0.0011	0.0000	179.9986	0.0037
FcHPF1 (Hz)	116.68	0.0012	0.0000	179.9984	0.0037
R2 (KOhm)	62.00	0.0013	0.0000	179.9983	0.0037
C2 (nF)	220.00	0.0014	0.0000	179.9982	0.0037
FcHPF2 (Hz)	116.68	0.0015	0.0000	179.9980	0.0037
R3 (KOhm)	0.00	0.0016	0.0000	179.9979	0.0037
C3 (nF)	0.00	0.0017	0.0000	179.9978	0.0037
FcHPF3 (Hz)	0.00	0.0018	0.0000	179.9976	0.0037
R4 (KOhm)	44.00	0.0019	0.0000	179.9975	0.0037
C4 (nF)	18.00	0.0020	0.0000	179.9974	0.0037
R5 (KOhm)	44.00	0.0021	0.0000	179.9972	0.0037
C5(nF)	1.50	0.0022	0.0000	179.9971	0.0037
LPFx2 Fc (Hz)	696.12	0.0023	0.0000	179.9970	0.0037
Q	0.25	0.0024	0.0000	179.9968	0.0037
R6 (KOhm)	1000.00	0.0025	0.0000	179.9967	0.0037
R7 (KOhm)	100.00	0.0026	0.0000	179.9966	0.0037
K (gain)	11.00	0.0027	0.0000	179.9965	0.0037
R8 (KOhm)	0.00	0.0028	0.0000	179.9963	0.0037
C8(nF)	0.00	0.0029	0.0000	179.9962	0.0037
LPFout Fc (Hz)	0.00	0.0030	0.0000	179.9961	0.0037
		0.0031	0.0000	179.9959	0.0037
		0.0032	0.0000	179.9958	0.0037
		0.0033	0.0000	179.9957	0.0037
		0.0034	0.0000	179.9955	0.0037
		0.0035	0.0000	179.9954	0.0037
		0.0036	0.0000	179.9953	0.0037
		0.0037	0.0000	179.9951	0.0037
		0.0038	0.0000	179.9950	0.0037
		0.0039	0.0000	179.9949	0.0037
		0.0040	0.0000	179.9947	0.0037
		0.0041	0.0000	179.9946	0.0037
		0.0042	0.0000	179.9945	0.0037
		0.0043	0.0000	179.9943	0.0037
		0.0044	0.0000	179.9942	0.0037
		0.0045	0.0000	179.9941	0.0037
		0.0046	0.0000	179.9940	0.0037
		0.0047	0.0000	179.9938	0.0037
		0.0048	0.0000	179.9937	0.0037
		0.0049	0.0000	179.9936	0.0037
		0.0050	0.0000	179.9934	0.0037
		0.0051	0.0000	179.9933	0.0037
		0.0052	0.0000	179.9932	0.0037
		0.0053	0.0000	179.9930	0.0037
		0.0054	0.0000	179.9929	0.0037
		0.0055	0.0000	179.9928	0.0037
		0.0056	0.0000	179.9926	0.0037
		0.0057	0.0000	179.9925	0.0037
		0.0058	0.0000	179.9924	0.0037
		0.0059	0.0000	179.9922	0.0037
		0.0060	0.0000	179.9921	0.0037
		0.0061	0.0000	179.9920	0.0037
		0.0062	0.0000	179.9918	0.0037
		0.0063	0.0000	179.9917	0.0037
		0.0064	0.0000	179.9916	0.0037
		0.0065	0.0000	179.9915	0.0037
		0.0066	0.0000	179.9913	0.0037
		0.0067	0.0000	179.9912	0.0037
		0.0068	0.0000	179.9911	0.0037
		0.0069	0.0000	179.9909	0.0037
		0.0070	0.0000	179.9908	0.0037
		0.0071	0.0000	179.9907	0.0037
		0.0072	0.0000	179.9905	0.0037
		0.0073	0.0000	179.9904	0.0037
		0.0074	0.0000	179.9903	0.0037
		0.0075	0.0000	179.9901	0.0037
		0.0076	0.0000	179.9900	0.0037
		0.0077	0.0000	179.9899	0.0037
		0.0078	0.0000	179.9897	0.0037
		0.0079	0.0000	179.9896	0.0037
		0.0080	0.0000	179.9895	0.0037
		0.0081	0.0000	179.9894	0.0037
		0.0082	0.0000	179.9892	0.0037
		0.0083	0.0000	179.9891	0.0037
		0.0084	0.0000	179.9890	0.0037
		0.0085	0.0000	179.9888	0.0037
		0.0086	0.0000	179.9887	0.0037
		0.0087	0.0000	179.9886	0.0037
		0.0088	0.0000	179.9884	0.0037
		0.0089	0.0000	179.9883	0.0037
		0.0090	0.0000	179.9882	0.0037
		0.0091	0.0000	179.9880	0.0037
		0.0092	0.0000	179.9879	0.0037
		0.0093	0.0000	179.9878	0.0037
		0.0094	0.0000	179.9876	0.0037
		0.0095	0.0000	179.9875	0.0037
		0.0096	0.0000	179.9874	0.0037
		0.0097	0.0000	179.9872	0.0037
		0.0098	0.0000	179.9871	0.0037
		0.0099	0.0000	179.9870	0.0037
		0.0100	0.0000	179.9869	0.0037
		0.0110	0.0000	179.9855	0.0037
		0.0120	0.0000	179.9842	0.0037
		0.0130	0.0000	179.9829	0.0037
		0.0140	0.0000	179.9816	0.0037
		0.0150	0.0000	179.9803	0.0037
		0.0160	0.0000	179.9790	0.0037
		0.0170	0.0000	179.9776	0.0037
		0.0180	0.0000	179.9763	0.0037
		0.0190	0.0000	179.9750	0.0037
		0.0200	0.0000	179.9737	0.0037
		0.0210	0.0000	179.9724	0.0037
		0.0220	0.0000	179.9711	0.0037
		0.0230	0.0000	179.9698	0.0037
		0.0240	0.0000	179.9684	0.0037
		0.0250	0.0001	179.9671	0.0037
		0.0260	0.0001	179.9658	0.0037
		0.0270	0.0001	179.9645	0.0037
		0.0280	0.0001	179.9632	0.0037
		0.0290	0.0001	179.9619	0.0037
		0.0300	0.0001	179.9606	0.0037
		0.0310	0.0001	179.9592	0.0037
		0.0320	0.0001	179.9579	0.0037
		0.0330	0.0001	179.9566	0.0037
		0.0340	0.0001	179.9553	0.0037
		0.0350	0.0001	179.9540	0.0037
		0.0360	0.0001	179.9527	0.0037
		0.0370	0.0001	179.9514	0.0037
		0.0380	0.0001	179.9500	0.0037
		0.0390	0.0001	179.9487	0.0037
		0.0400	0.0001	179.9474	0.0037
		0.0410	0.0001	179.9461	0.0037
		0.0420	0.0001	179.9448	0.0037
		0.0430	0.0001	179.9435	0.0037
		0.0440	0.0002	179.9422	0.0037
		0.0450	0.0002	179.9408	0.0037
		0.0460	0.0002	179.9395	0.0037
		0.0470	0.0002	179.9382	0.0037
		0.0480	0.0002	179.9369	0.0037
		0.0490	0.0002	179.9356	0.0037
		0.0500	0.0002	179.9343	0.0037
		0.0510	0.0002	179.9329	0.0037
		0.0520	0.0002	179.9316	0.0037
		0.0530	0.0002	179.9303	0.0037
		0.0540	0.0002	179.9290	0.0037
		0.0550	0.0002	179.9277	0.0037
		0.0560	0.0003	179.9264	0.0037
		0.0570	0.0003	179.9251	0.0037
		0.0580	0.0003	179.9237	0.0037
		0.0590	0.0003	179.9224	0.0037
		0.0600	0.0003	179.9211	0.0037
		0.0610	0.0003	179.9198	0.0037
		0.0620	0.0003	179.9185	0.0037
		0.0630	0.0003	179.9172	0.0037
		0.0640	0.0003	179.9159	0.0037
		0.0650	0.0003	179.9145	0.0037
		0.0660	0.0004	179.9132	0.0037
		0.0670	0.0004	179.9119	0.0037
		0.0680	0.0004	179.9106	0.0037
		0.0690	0.0004	179.9093	0.0037
		0.0700	0.0004	179.9080	0.0037
		0.0710	0.0004	179.9067	0.0037
		0.0720	0.0004	179.9053	0.0037
		0.0730	0.0004	179.9040	0.0037
		0.0740	0.0004	179.9027	0.0037
		0.0750	0.0005	179.9014	0.0037
		0.0760	0.0005	179.9001	0.0037
		0.0770	0.0005	179.8988	0.0037
		0.0780	0.0005	179.8975	0.0037
		0.0790	0.0005	179.8961	0.0037
		0.0800	0.0005	179.8948	0.0037
		0.0810	0.0005	179.8935	0.0037
		0.0820	0.0005	179.8922	0.0037
		0.0830	0.0006	179.8909	0.0037
		0.0840	0.0006	179.8896	0.0037
		0.0850	0.0006	179.8882	0.0037
		0.0860	0.0006	179.8869	0.0037
		0.0870	0.0006	179.8856	0.0037
		0.0880	0.0006	179.8843	0.0037
		0.0890	0.0006	179.8830	0.0037
		0.0900	0.0007	179.8817	0.0037
		0.0910	0.0007	179.8804	0.0037
		0.0920	0.0007	179.8790	0.0037
		0.0930	0.0007	179.8777	0.0037
		0.0940	0.0007	179.8764	0.0037
		0.0950	0.0007	179.8751	0.0037
		0.0960	0.0007	179.8738	0.0037
		0.0970	0.0008	179.8725	0.0037
		0.0980	0.0008	179.8712	0.0037
		0.0990	0.0008	179.8698	0.0037
		0.1000	0.0008	179.8685	0.0037
		0.1100	0.0010	179.8554	0.0037
		0.1200	0.0012	179.8422	0.0037
		0.1300	0.0014	179.8291	0.0037
		0.1400	0.0016	179.8159	0.0037
		0.1500	0.0018	179.8028	0.0037
		0.1600	0.0021	179.7896	0.0037
		0.1700	0.0023	179.7765	0.0037
		0.1800	0.0026	179.7634	0.0037
		0.1900	0.0029	179.7502	0.0037
		0.2000	0.0032	179.7371	0.0037
		0.2100	0.0036	179.7239	0.0037
		0.2200	0.0039	179.7108	0.0037
		0.2300	0.0043	179.6976	0.0037
		0.2400	0.0047	179.6845	0.0037
		0.2500	0.0050	179.6713	0.0037
		0.2600	0.0055	179.6582	0.0037
		0.2700	0.0059	179.6450	0.0037
		0.2800	0.0063	179.6319	0.0037
		0.2900	0.0068	179.6187	0.0037
		0.3000	0.0073	179.6056	0.0037
		0.3100	0.0078	179.5924	0.0037
		0.3200	0.0083	179.5793	0.0037
		0.3300	0.0088	179.5661	0.0037
		0.3400	0.0093	179.5530	0.0037
		0.3500	0.0099	179.5398	0.0037
		0.3600	0.0105	179.5267	0.0037
		0.3700	0.0111	179.5136	0.0037
		0.3800	0.0117	179.5004	0.0037
		0.3900	0.0123	179.4873	0.0037
		0.4000	0.0129	179.4741	0.0037
		0.4100	0.0136	179.4610	0.0037
		0.4200	0.0143	179.4478	0.0037
		0.4300	0.0149	179.4347	0.0037
		0.4400	0.0156	179.4215	0.0037
		0.4500	0.0164	179.4084	0.0037
		0.4600	0.0171	179.3952	0.0037
		0.4700	0.0178	179.3821	0.0037
		0.4800	0.0186	179.3689	0.0037
		0.4900	0.0194	179.3558	0.0037
		0.5000	0.0202	179.3426	0.0037
		0.5100	0.0210	179.3295	0.0037
		0.5200	0.0218	179.3163	0.0037
		0.5300	0.0227	179.3032	0.0037
		0.5400	0.0236	179.2901	0.0037
		0.5500	0.0244	179.2769	0.0037
		0.5600	0.0253	179.2638	0.0037
		0.5700	0.0262	179.2506	0.0037
		0.5800	0.0272	179.2375	0.0037
		0.5900	0.0281	179.2243	0.0037
		0.6000	0.0291	179.2112	0.0037
		0.6100	0.0301	179.1980	0.0037
		0.6200	0.0311	179.1849	0.0037
		0.6300	0.0321	179.1717	0.0037
		0.6400	0.0331	179.1586	0.0037
		0.6500	0.0341	179.1454	0.0037
		0.6600	0.0352	179.1323	0.0037
		0.6700	0.0363	179.1191	0.0037
		0.6800	0.0374	179.1060	0.0037
		0.6900	0.0385	179.0929	0.0037
		0.7000	0.0396	179.0797	0.0037
		0.7100	0.0407	179.0666	0.0037
		0.7200	0.0419	179.0534	0.0037
		0.7300	0.0431	179.0403	0.0037
		0.7400	0.0442	179.0271	0.0037
		0.7500	0.0454	179.0140	0.0037
		0.7600	0.0467	179.0008	0.0037
		0.7700	0.0479	178.9877	0.0037
		0.7800	0.0492	178.9745	0.0037
		0.7900	0.0504	178.9614	0.0037
		0.8000	0.0517	178.9482	0.0037
		0.8100	0.0530	178.9351	0.0037
		0.8200	0.0543	178.9219	0.0037
		0.8300	0.0557	178.9088	0.0037
		0.8400	0.0570	178.8957	0.0037
		0.8500	0.0584	178.8825	0.0037
		0.8600	0.0598	178.8694	0.0037
		0.8700	0.0611	178.8562	0.0037
		0.8800	0.0626	178.8431	0.0037
		0.8900	0.0640	178.8299	0.0037
		0.9000	0.0654	178.8168	0.0037
		0.9100	0.0669	178.8036	0.0037
		0.9200	0.0684	178.7905	0.0037
		0.9300	0.0699	178.7773	0.0037
		0.9400	0.0714	178.7642	0.0037
		0.9500	0.0729	178.7510	0.0037
		0.9600	0.0745	178.7379	0.0037
		0.9700	0.0760	178.7247	0.0037
		0.9800	0.0776	178.7116	0.0037
		0.9900	0.0792	178.6985	0.0037
		1.0000	0.0808	178.6853	0.0037
		1.1000	0.0978	178.5538	0.0037
		1.2000	0.1163	178.4224	0.0037
		1.3000	0.1365	178.2909	0.0037
		1.4000	0.1583	178.1595	0.0037
		1.5000	0.1818	178.0280	0.0037
		1.6000	0.2068	177.8966	0.0037
		1.7000	0.2334	177.7651	0.0037
		1.8000	0.2617	177.6337	0.0037
		1.9000	0.2916	177.5022	0.0037
		2.0000	0.3231	177.3708	0.0037
		2.1000	0.3562	177.2393	0.0037
		2.2000	0.3909	177.1079	0.0037
		2.3000	0.4272	176.9765	0.0037
		2.4000	0.4651	176.8450	0.0037
		2.5000	0.5047	176.7136	0.0037
		2.6000	0.5458	176.5822	0.0037
		2.7000	0.5886	176.4508	0.0037
		2.8000	0.6330	176.3194	0.0037
		2.9000	0.6790	176.1880	0.0037
		3.0000	0.7266	176.0566	0.0036
		3.1000	0.7758	175.9252	0.0036
		3.2000	0.8266	175.7938	0.0036
		3.3000	0.8790	175.6624	0.0036
		3.4000	0.9330	175.5310	0.0036
		3.5000	0.9887	175.3996	0.0036
		3.6000	1.0459	175.2683	0.0036
		3.7000	1.1047	175.1369	0.0036
		3.8000	1.1652	175.0055	0.0036
		3.9000	1.2272	174.8742	0.0036
		4.0000	1.2909	174.7429	0.0036
		4.1000	1.3561	174.6115	0.0036
		4.2000	1.4230	174.4802	0.0036
		4.3000	1.4915	174.3489	0.0036
		4.4000	1.5615	174.2175	0.0036
		4.5000	1.6332	174.0862	0.0036
		4.6000	1.7064	173.9549	0.0036
		4.7000	1.7813	173.8236	0.0036
		4.8000	1.8577	173.6923	0.0036
		4.9000	1.9358	173.5611	0.0036
		5.0000	2.0154	173.4298	0.0036
		5.1000	2.0966	173.2985	0.0036
		5.2000	2.1795	173.1673	0.0036
		5.3000	2.2639	173.0360	0.0036
		5.4000	2.3499	172.9048	0.0036
		5.5000	2.4375	172.7735	0.0036
		5.6000	2.5267	172.6423	0.0036
		5.7000	2.6175	172.5111	0.0036
		5.8000	2.7099	172.3799	0.0036
		5.9000	2.8038	172.2487	0.0036
		6.0000	2.8994	172.1175	0.0036
		6.1000	2.9965	171.9863	0.0036
		6.2000	3.0952	171.8552	0.0036
		6.3000	3.1955	171.7240	0.0036
		6.4000	3.2974	171.5929	0.0036
		6.5000	3.4009	171.4617	0.0036
		6.6000	3.5059	171.3306	0.0036
		6.7000	3.6125	171.1995	0.0036
		6.8000	3.7207	171.0684	0.0036
		6.9000	3.8305	170.9373	0.0036
		7.0000	3.9419	170.8062	0.0036
		7.1000	4.0548	170.6752	0.0036
		7.2000	4.1693	170.5441	0.0036
		7.3000	4.2854	170.4131	0.0036
		7.4000	4.4030	170.2820	0.0036
		7.5000	4.5222	170.1510	0.0036
		7.6000	4.6430	170.0200	0.0036
		7.7000	4.7654	169.8890	0.0036
		7.8000	4.8893	169.7580	0.0036
		7.9000	5.0147	169.6270	0.0036
		8.0000	5.1418	169.4961	0.0036
		8.1000	5.2704	169.3651	0.0036
		8.2000	5.4005	169.2342	0.0036
		8.3000	5.5323	169.1033	0.0036
		8.4000	5.6655	168.9724	0.0036
		8.5000	5.8004	168.8415	0.0036
		8.6000	5.9368	168.7106	0.0036
		8.7000	6.0747	168.5797	0.0036
		8.8000	6.2142	168.4489	0.0036
		8.9000	6.3553	168.3180	0.0036
		9.0000	6.4979	168.1872	0.0036
		9.1000	6.6420	168.0564	0.0036
		9.2000	6.7877	167.9256	0.0036
		9.3000	6.9349	167.7948	0.0036
		9.4000	7.0837	167.6641	0.0036
		9.5000	7.2340	167.5333	0.0036
		9.6000	7.3859	167.4026	0.0036
		9.7000	7.5393	167.2718	0.0036
		9.8000	7.6942	167.1411	0.0036
		9.9000	7.8507	167.0105	0.0036
		10.0000	8.0087	166.8798	0.0036
		11.0000	9.6727	165.5740	0.0036
		12.0000	11.4882	164.2699	0.0036
		13.0000	13.4533	162.9678	0.0036
		14.0000	15.5659	161.6677	0.0036
		15.0000	17.8240	160.3698	0.0036
		16.0000	20.2252	159.0743	0.0036
		17.0000	22.7671	157.7813	0.0036
		18.0000	25.4472	156.4910	0.0036
		19.0000	28.2629	155.2035	0.0036
		20.0000	31.2113	153.9189	0.0036
		21.0000	34.2895	152.6374	0.0036
		22.0000	37.4946	151.3591	0.0035
		23.0000	40.8235	150.0841	0.0035
		24.0000	44.2730	148.8127	0.0035
		25.0000	47.8399	147.5448	0.0035
		26.0000	51.5209	146.2807	0.0035
		27.0000	55.3124	145.0205	0.0035
		28.0000	59.2112	143.7642	0.0035
		29.0000	63.2135	142.5120	0.0035
		30.0000	67.3160	141.2641	0.0035
		31.0000	71.5149	140.0205	0.0034
		32.0000	75.8065	138.7813	0.0034
		33.0000	80.1873	137.5467	0.0034
		34.0000	84.6534	136.3167	0.0034
		35.0000	89.2011	135.0914	0.0034
		36.0000	93.8267	133.8711	0.0034
		37.0000	98.5264	132.6556	0.0034
		38.0000	103.2964	131.4452	0.0033
		39.0000	108.1330	130.2399	0.0033
		40.0000	113.0324	129.0398	0.0033
		41.0000	117.9909	127.8450	0.0033
		42.0000	123.0047	126.6556	0.0033
		43.0000	128.0701	125.4716	0.0033
		44.0000	133.1834	124.2931	0.0033
		45.0000	138.3410	123.1202	0.0032
		46.0000	143.5393	121.9530	0.0032
		47.0000	148.7748	120.7915	0.0032
		48.0000	154.0438	119.6357	0.0032
		49.0000	159.3429	118.4858	0.0032
		50.0000	164.6686	117.3418	0.0032
		51.0000	170.0177	116.2037	0.0031
		52.0000	175.3867	115.0717	0.0031
		53.0000	180.7725	113.9456	0.0031
		54.0000	186.1718	112.8257	0.0031
		55.0000	191.5814	111.7118	0.0031
		56.0000	196.9984	110.6042	0.0031
		57.0000	202.4196	109.5027	0.0030
		58.0000	207.8423	108.4074	0.0030
		59.0000	213.2635	107.3184	0.0030
		60.0000	218.6804	106.2357	0.0030
		61.0000	224.0904	105.1593	0.0030
		62.0000	229.4907	104.0893	0.0030
		63.0000	234.8789	103.0256	0.0029
		64.0000	240.2525	101.9683	0.0029
		65.0000	245.6090	100.9173	0.0029
		66.0000	250.9461	99.8728	0.0029
		67.0000	256.2616	98.8347	0.0029
		68.0000	261.5533	97.8030	0.0028
		69.0000	266.8191	96.7777	0.0028
		70.0000	272.0569	95.7589	0.0028
		71.0000	277.2650	94.7465	0.0028
		72.0000	282.4412	93.7405	0.0028
		73.0000	287.5840	92.7410	0.0028
		74.0000	292.6915	91.7479	0.0027
		75.0000	297.7622	90.7613	0.0027
		76.0000	302.7944	89.7811	0.0027
		77.0000	307.7867	88.8073	0.0027
		78.0000	312.7376	87.8399	0.0027
		79.0000	317.6458	86.8789	0.0027
		80.0000	322.5100	85.9244	0.0026
		81.0000	327.3291	84.9761	0.0026
		82.0000	332.1017	84.0343	0.0026
		83.0000	336.8269	83.0988	0.0026
		84.0000	341.5037	82.1696	0.0026
		85.0000	346.1310	81.2468	0.0025
		86.0000	350.7081	80.3302	0.0025
		87.0000	355.2340	79.4199	0.0025
		88.0000	359.7080	78.5159	0.0025
		89.0000	364.1294	77.6181	0.0025
		90.0000	368.4974	76.7265	0.0025
		91.0000	372.8116	75.8410	0.0024
		92.0000	377.0713	74.9617	0.0024
		93.0000	381.2761	74.0886	0.0024
		94.0000	385.4255	73.2215	0.0024
		95.0000	389.5190	72.3606	0.0024
		96.0000	393.5564	71.5056	0.0024
		97.0000	397.5373	70.6567	0.0023
		98.0000	401.4614	69.8137	0.0023
		99.0000	405.3286	68.9767	0.0023
		100.0000	409.1386	68.1457	0.0022
		110.0000	444.0800	60.1532	0.0021
		120.0000	473.3517	52.7150	0.0019
		130.0000	497.2388	45.7939	0.0018
		140.0000	516.1782	39.3524	0.0017
		150.0000	530.6823	33.3535	0.0016
		160.0000	541.2852	27.7618	0.0014
		170.0000	548.5088	22.5438	0.0014
		180.0000	552.8414	17.6685	0.0013
		190.0000	554.7273	13.1071	0.0012
		200.0000	554.5625	8.8333	0.0011
		210.0000	552.6943	4.8230	0.0010
		220.0000	549.4240	1.0545	0.0010
		230.0000	545.0105	-2.4924	0.0009
		240.0000	539.6748	-5.8355	0.0009
		250.0000	533.6042	-8.9914	0.0008
		260.0000	526.9568	-11.9749	0.0008
		270.0000	519.8656	-14.7995	0.0007
		280.0000	512.4418	-17.4774	0.0007
		290.0000	504.7783	-20.0198	0.0007
		300.0000	496.9522	-22.4368	0.0006
		310.0000	489.0272	-24.7376	0.0006
		320.0000	481.0562	-26.9306	0.0006
		330.0000	473.0823	-29.0234	0.0006
		340.0000	465.1407	-31.0230	0.0005
		350.0000	457.2602	-32.9358	0.0005
		360.0000	449.4638	-34.7676	0.0005
		370.0000	441.7698	-36.5238	0.0005
		380.0000	434.1927	-38.2094	0.0004
		390.0000	426.7437	-39.8287	0.0004
		400.0000	419.4313	-41.3860	0.0004
		410.0000	412.2617	-42.8851	0.0004
		420.0000	405.2393	-44.3295	0.0004
		430.0000	398.3668	-45.7225	0.0004
		440.0000	391.6458	-47.0671	0.0004
		450.0000	385.0767	-48.3661	0.0003
		460.0000	378.6591	-49.6220	0.0003
		470.0000	372.3919	-50.8373	0.0003
		480.0000	366.2735	-52.0141	0.0003
		490.0000	360.3017	-53.1546	0.0003
		500.0000	354.4740	-54.2606	0.0000
